date	time	subject	blockcode	trialcode	picture.target.currentitem	values.stiminterval	latency	response	correct	values.score	values.AverageRTpractice	values.SSDcoeffitient	values.SSD
091024	14:06:43	1	Practice	CRTTpractice	deer.jpg	5000	625	54	1	1	0	0	0
091024	14:06:43	1	Practice	CRTTpractice	tank.jpg	4000	493	42	1	2	0	0	0
091024	14:06:43	1	Practice	CRTTpractice	deer.jpg	5000	625	54	1	3	0	0	0
091024	14:06:43	1	Practice	CRTTpractice	tank.jpg	5000	431	42	1	4	0	0	0
091024	14:06:43	1	Practice	CRTTpractice	deer.jpg	6000	645	54	1	5	0	0	0
091024	14:06:43	1	Practice	CRTTpractice	tank.jpg	5000	490	42	1	6	0	0	0
091024	14:06:43	1	Practice	CRTTpractice	tank.jpg	4000	558	42	1	7	0	0	0
091024	14:06:43	1	Practice	CRTTpractice	deer.jpg	4500	547	54	1	8	0	0	0
091024	14:06:43	1	Practice	CRTTpractice	tank.jpg	4500	448	42	1	9	0	0	0
091024	14:06:43	1	Practice	CRTTpractice	deer.jpg	5000	374	54	1	10	0	0	0
091024	14:06:43	1	Practice	CRTTpractice	tank.jpg	4500	473	42	1	11	0	0	0
091024	14:06:43	1	Practice	CRTTpractice	deer.jpg	5500	402	54	1	12	0	0	0
091024	14:06:43	1	Practice	CRTTpractice	deer.jpg	4000	457	42	0	11	0	0	0
091024	14:06:43	1	Practice	CRTTpractice	tank.jpg	5500	450	42	1	12	0	0	0
091024	14:06:43	1	Practice	CRTTpractice	deer.jpg	5500	579	54	1	13	0	0	0
091024	14:06:43	1	Practice	CRTTpractice	tank.jpg	6000	484	42	1	14	0	0	0
091024	14:06:43	1	Practice	CRTTpractice	deer.jpg	5000	663	54	1	15	0	0	0
091024	14:06:43	1	Practice	CRTTpractice	tank.jpg	5500	527	42	1	16	0	0	0
091024	14:06:43	1	Practice	CRTTpractice	deer.jpg	5000	750	0	0	15	0	0	0
091024	14:06:43	1	Practice	CRTTpractice	tank.jpg	4500	623	42	1	16	0	0	0
091024	14:06:43	1	Practice	CRTTpractice	deer.jpg	5500	514	54	1	17	0	0	0
091024	14:06:43	1	Practice	CRTTpractice	tank.jpg	5500	569	42	1	18	0	0	0
091024	14:06:43	1	Practice	CRTTpractice	tank.jpg	6000	649	42	1	19	0	0	0
091024	14:06:43	1	Practice	CRTTpractice	deer.jpg	5500	594	54	1	20	0	0	0
091024	14:06:43	1	Practice	CRTTpractice	deer.jpg	5000	514	54	1	21	0	0	0
091024	14:06:43	1	Practice	CRTTpractice	tank.jpg	5000	612	42	1	22	0	0	0
091024	14:06:43	1	Practice	CRTTpractice	deer.jpg	5000	523	54	1	23	0	0	0
091024	14:06:43	1	Practice	CRTTpractice	tank.jpg	6000	502	42	1	24	0	0	0
091024	14:06:43	1	Practice	CRTTpractice	tank.jpg	5500	525	42	1	25	0	0	0
091024	14:06:43	1	Practice	CRTTpractice	deer.jpg	5000	609	54	1	26	0	0	0
091024	14:06:43	1	SST	CRTTstop	deer.jpg	6000	379	0	0	26	542	70	379,4000000000000341061
091024	14:06:43	1	SST	CRTTstop2	deer.jpg	6000	109	54	1	25	542	70	379,4000000000000341061
091024	14:06:43	1	SST	CRTT	tank.jpg	5500	750	0	0	24	542	70	379,4000000000000341061
091024	14:06:43	1	SST	CRTT	tank.jpg	5500	750	0	0	23	542	70	379,4000000000000341061
091024	14:06:43	1	SST	CRTTstop	deer.jpg	4500	54	0	0	23	542	10	54,2000000000000028422
091024	14:06:43	1	SST	CRTTstop2	deer.jpg	4500	696	0	0	23	542	10	54,2000000000000028422
091024	14:06:43	1	SST	CRTT	tank.jpg	4854,1999999999998181011	750	0	0	22	542	10	54,2000000000000028422
091024	14:06:43	1	SST	CRTT	deer.jpg	4500	529	54	1	23	542	10	54,2000000000000028422
091024	14:06:43	1	SST	CRTTstop	deer.jpg	5000	108	0	0	23	542	20	108,4000000000000056843
091024	14:06:43	1	SST	CRTTstop2	deer.jpg	5000	642	0	0	23	542	20	108,4000000000000056843
091024	14:06:43	1	SST	CRTT	tank.jpg	4908,3999999999996362021	631	42	1	24	542	20	108,4000000000000056843
091024	14:06:43	1	SST	CRTTstop	tank.jpg	6000	434	0	0	24	542	80	433,6000000000000227374
091024	14:06:43	1	SST	CRTTstop2	tank.jpg	6000	123	42	1	23	542	80	433,6000000000000227374
091024	14:06:43	1	SST	CRTT	deer.jpg	6000	685	54	1	24	542	80	433,6000000000000227374
091024	14:06:43	1	SST	CRTT	deer.jpg	6000	698	54	1	25	542	80	433,6000000000000227374
091024	14:06:43	1	SST	CRTT	tank.jpg	5500	480	42	1	26	542	80	433,6000000000000227374
091024	14:06:43	1	SST	CRTTstop	deer.jpg	4500	108	0	0	26	542	20	108,4000000000000056843
091024	14:06:43	1	SST	CRTTstop2	deer.jpg	4500	642	0	0	26	542	20	108,4000000000000056843
091024	14:06:43	1	SST	CRTT	tank.jpg	3908,4000000000000909495	653	42	1	27	542	20	108,4000000000000056843
091024	14:06:43	1	SST	CRTTstop	tank.jpg	4000	54	0	0	27	542	10	54,2000000000000028422
091024	14:06:43	1	SST	CRTTstop2	tank.jpg	4000	696	0	0	27	542	10	54,2000000000000028422
091024	14:06:43	1	SST	CRTT	deer.jpg	4354,1999999999998181011	645	54	1	28	542	10	54,2000000000000028422
091024	14:06:43	1	SST	CRTT	deer.jpg	5500	654	54	1	29	542	10	54,2000000000000028422
091024	14:06:43	1	SST	CRTT	tank.jpg	5000	750	0	0	28	542	10	54,2000000000000028422
091024	14:06:43	1	SST	CRTT	tank.jpg	5000	661	42	1	29	542	10	54,2000000000000028422
091024	14:06:43	1	SST	CRTTstop	deer.jpg	5500	434	0	0	29	542	80	433,6000000000000227374
091024	14:06:43	1	SST	CRTTstop2	deer.jpg	5500	163	54	1	28	542	80	433,6000000000000227374
091024	14:06:43	1	SST	CRTTstop	tank.jpg	6000	379	0	0	28	542	70	379,4000000000000341061
091024	14:06:43	1	SST	CRTTstop2	tank.jpg	6000	371	0	0	28	542	70	379,4000000000000341061
091024	14:06:43	1	SST	CRTT	deer.jpg	4179,3999999999996362021	750	0	0	27	542	70	379,4000000000000341061
091024	14:06:43	1	SST	CRTT	tank.jpg	4000	702	42	1	28	542	70	379,4000000000000341061
091024	14:06:43	1	SST	CRTTstop	deer.jpg	4000	434	0	0	28	542	80	433,6000000000000227374
091024	14:06:43	1	SST	CRTTstop2	deer.jpg	4000	63	54	1	27	542	80	433,6000000000000227374
091024	14:06:43	1	SST	CRTT	deer.jpg	5500	520	54	1	28	542	80	433,6000000000000227374
091024	14:06:43	1	SST	CRTT	tank.jpg	4000	750	0	0	27	542	80	433,6000000000000227374
091024	14:06:43	1	SST	CRTT	deer.jpg	6000	750	0	0	26	542	80	433,6000000000000227374
091024	14:06:43	1	SST	CRTT	tank.jpg	4500	697	42	1	27	542	80	433,6000000000000227374
091024	14:06:43	1	SST	CRTT	deer.jpg	4500	750	0	0	26	542	80	433,6000000000000227374
091024	14:06:43	1	SST	CRTTstop	tank.jpg	4000	379	0	0	26	542	70	379,4000000000000341061
091024	14:06:43	1	SST	CRTTstop2	tank.jpg	4000	371	0	0	26	542	70	379,4000000000000341061
091024	14:06:43	1	SST	CRTT	tank.jpg	4179,3999999999996362021	626	42	1	27	542	70	379,4000000000000341061
091024	14:06:43	1	SST	CRTTstop	deer.jpg	5500	108	0	0	27	542	20	108,4000000000000056843
091024	14:06:43	1	SST	CRTTstop2	deer.jpg	5500	642	0	0	27	542	20	108,4000000000000056843
091024	14:06:43	1	SST	CRTT	deer.jpg	4908,3999999999996362021	578	54	1	28	542	20	108,4000000000000056843
091024	14:06:43	1	SST	CRTT	tank.jpg	4000	625	42	1	29	542	20	108,4000000000000056843
091024	14:06:43	1	SST	CRTT	tank.jpg	5500	468	42	1	30	542	20	108,4000000000000056843
091024	14:06:43	1	SST	CRTTstop	deer.jpg	4500	54	0	0	30	542	10	54,2000000000000028422
091024	14:06:43	1	SST	CRTTstop2	deer.jpg	4500	696	0	0	30	542	10	54,2000000000000028422
091024	14:06:43	1	SST	CRTT	tank.jpg	4854,1999999999998181011	750	0	0	29	542	10	54,2000000000000028422
091024	14:06:43	1	SST	CRTT	deer.jpg	5500	593	54	1	30	542	10	54,2000000000000028422
091024	14:06:43	1	SST	CRTTstop	tank.jpg	5500	54	0	0	30	542	10	54,2000000000000028422
091024	14:06:43	1	SST	CRTTstop2	tank.jpg	5500	696	0	0	30	542	10	54,2000000000000028422
091024	14:06:43	1	SST	CRTTstop	deer.jpg	4354,1999999999998181011	434	0	0	30	542	80	433,6000000000000227374
091024	14:06:43	1	SST	CRTTstop2	deer.jpg	4354,1999999999998181011	149	54	1	29	542	80	433,6000000000000227374
091024	14:06:43	1	SST	CRTT	deer.jpg	4000	750	0	0	28	542	80	433,6000000000000227374
091024	14:06:43	1	SST	CRTTstop	tank.jpg	5500	108	0	0	28	542	20	108,4000000000000056843
091024	14:06:43	1	SST	CRTTstop2	tank.jpg	5500	642	0	0	28	542	20	108,4000000000000056843
091024	14:06:43	1	SST	CRTTstop	deer.jpg	3408,4000000000000909495	379	0	0	28	542	70	379,4000000000000341061
091024	14:06:43	1	SST	CRTTstop2	deer.jpg	3408,4000000000000909495	371	0	0	28	542	70	379,4000000000000341061
091024	14:06:43	1	SST	CRTT	tank.jpg	5679,3999999999996362021	697	42	1	29	542	70	379,4000000000000341061
091024	14:06:43	1	SST	CRTT	deer.jpg	4500	750	0	0	28	542	70	379,4000000000000341061
091024	14:06:43	1	SST	CRTT	tank.jpg	4000	554	42	1	29	542	70	379,4000000000000341061
091024	14:06:43	1	SST	CRTT	tank.jpg	5500	551	42	1	30	542	70	379,4000000000000341061
091024	14:06:43	1	SST	CRTT	deer.jpg	5500	676	54	1	31	542	70	379,4000000000000341061
091024	14:06:43	1	SST	CRTT	tank.jpg	6000	521	42	1	32	542	70	379,4000000000000341061
091024	14:06:43	1	SST	CRTT	deer.jpg	6000	636	54	1	33	542	70	379,4000000000000341061
091024	14:06:43	1	SST	CRTTstop	tank.jpg	4000	379	0	0	33	542	70	379,4000000000000341061
091024	14:06:43	1	SST	CRTTstop2	tank.jpg	4000	371	0	0	33	542	70	379,4000000000000341061
091024	14:06:43	1	SST	CRTT	deer.jpg	3679,4000000000000909495	582	54	1	34	542	70	379,4000000000000341061
091024	14:06:43	1	SST	CRTTstop	tank.jpg	5500	434	0	0	34	542	80	433,6000000000000227374
091024	14:06:43	1	SST	CRTTstop2	tank.jpg	5500	145	42	1	33	542	80	433,6000000000000227374
091024	14:06:43	1	SST	CRTT	deer.jpg	5000	578	54	1	34	542	80	433,6000000000000227374
091024	14:06:43	1	SST	CRTTstop	deer.jpg	5500	108	0	0	34	542	20	108,4000000000000056843
091024	14:06:43	1	SST	CRTTstop2	deer.jpg	5500	642	0	0	34	542	20	108,4000000000000056843
091024	14:06:43	1	SST	CRTTstop	tank.jpg	4408,3999999999996362021	54	0	0	34	542	10	54,2000000000000028422
091024	14:06:43	1	SST	CRTTstop2	tank.jpg	4408,3999999999996362021	696	0	0	34	542	10	54,2000000000000028422
091024	14:06:43	1	SST	CRTTstop	deer.jpg	5354,1999999999998181011	379	0	0	34	542	70	379,4000000000000341061
091024	14:06:43	1	SST	CRTTstop2	deer.jpg	5354,1999999999998181011	371	0	0	34	542	70	379,4000000000000341061
091024	14:06:43	1	SST	CRTT	tank.jpg	4179,3999999999996362021	750	0	0	33	542	70	379,4000000000000341061
091024	14:06:43	1	SST	CRTT	deer.jpg	5500	703	54	1	34	542	70	379,4000000000000341061
091024	14:06:43	1	SST	CRTT	tank.jpg	4000	562	42	1	35	542	70	379,4000000000000341061
091024	14:06:43	1	SST	CRTTstop	deer.jpg	5500	108	0	0	35	542	20	108,4000000000000056843
091024	14:06:43	1	SST	CRTTstop2	deer.jpg	5500	642	0	0	35	542	20	108,4000000000000056843
091024	14:06:43	1	SST	CRTT	tank.jpg	5408,3999999999996362021	687	42	1	36	542	20	108,4000000000000056843
091024	14:06:43	1	SST	CRTT	deer.jpg	6000	531	54	1	37	542	20	108,4000000000000056843
091024	14:06:43	1	SST	CRTT	tank.jpg	5000	525	42	1	38	542	20	108,4000000000000056843
091024	14:06:43	1	SST	CRTT	tank.jpg	6000	488	42	1	39	542	20	108,4000000000000056843
091024	14:06:43	1	SST	CRTT	deer.jpg	4500	528	54	1	40	542	20	108,4000000000000056843
091024	14:06:43	1	SST	CRTT	deer.jpg	6000	570	54	1	41	542	20	108,4000000000000056843
091024	14:06:43	1	SST	CRTT	tank.jpg	6000	515	42	1	42	542	20	108,4000000000000056843
091024	14:06:43	1	SST	CRTT	deer.jpg	4500	658	54	1	43	542	20	108,4000000000000056843
091024	14:06:43	1	SST	CRTT	tank.jpg	5500	611	42	1	44	542	20	108,4000000000000056843
091024	14:06:43	1	SST	CRTT	tank.jpg	5000	666	42	1	45	542	20	108,4000000000000056843
091024	14:06:43	1	SST	CRTTstop	deer.jpg	5500	434	0	0	45	542	80	433,6000000000000227374
091024	14:06:43	1	SST	CRTTstop2	deer.jpg	5500	112	54	1	44	542	80	433,6000000000000227374
091024	14:06:43	1	SST	CRTTstop	deer.jpg	5000	54	0	0	44	542	10	54,2000000000000028422
091024	14:06:43	1	SST	CRTTstop2	deer.jpg	5000	696	0	0	44	542	10	54,2000000000000028422
091024	14:06:43	1	SST	CRTTstop	tank.jpg	3354,1999999999998181011	54	0	0	44	542	10	54,2000000000000028422
091024	14:06:43	1	SST	CRTTstop2	tank.jpg	3354,1999999999998181011	696	0	0	44	542	10	54,2000000000000028422
091024	14:06:43	1	SST	CRTTstop	deer.jpg	4354,1999999999998181011	379	0	0	44	542	70	379,4000000000000341061
091024	14:06:43	1	SST	CRTTstop2	deer.jpg	4354,1999999999998181011	169	54	1	43	542	70	379,4000000000000341061
091024	14:06:43	1	SST	CRTT	tank.jpg	5000	750	0	0	42	542	70	379,4000000000000341061
091024	14:06:43	1	SST	CRTTstop	deer.jpg	5500	434	0	0	42	542	80	433,6000000000000227374
091024	14:06:43	1	SST	CRTTstop2	deer.jpg	5500	68	54	1	41	542	80	433,6000000000000227374
091024	14:06:43	1	SST	CRTT	tank.jpg	6000	608	42	1	42	542	80	433,6000000000000227374
091024	14:06:43	1	SST	CRTT	deer.jpg	5500	750	0	0	41	542	80	433,6000000000000227374
091024	14:06:43	1	SST	CRTTstop	tank.jpg	5500	108	0	0	41	542	20	108,4000000000000056843
091024	14:06:43	1	SST	CRTTstop2	tank.jpg	5500	642	0	0	41	542	20	108,4000000000000056843
091024	14:06:43	1	SST	CRTT	tank.jpg	5408,3999999999996362021	609	42	1	42	542	20	108,4000000000000056843
091024	14:06:43	1	SST	CRTT	deer.jpg	5500	516	54	1	43	542	20	108,4000000000000056843
091024	14:06:43	1	SST	CRTTstop	deer.jpg	5000	54	0	0	43	542	10	54,2000000000000028422
091024	14:06:43	1	SST	CRTTstop2	deer.jpg	5000	696	0	0	43	542	10	54,2000000000000028422
091024	14:06:43	1	SST	CRTT	tank.jpg	4354,1999999999998181011	750	0	0	42	542	10	54,2000000000000028422
091024	14:06:43	1	SST	CRTT	deer.jpg	4500	534	54	1	43	542	10	54,2000000000000028422
091024	14:06:43	1	SST	CRTT	tank.jpg	4500	461	42	1	44	542	10	54,2000000000000028422
091024	14:06:43	1	SST	CRTT	deer.jpg	5500	501	54	1	45	542	10	54,2000000000000028422
091024	14:06:43	1	SST	CRTT	tank.jpg	5000	472	42	1	46	542	10	54,2000000000000028422
091024	14:06:43	1	SST	CRTTstop	deer.jpg	5500	379	0	0	46	542	70	379,4000000000000341061
091024	14:06:43	1	SST	CRTTstop2	deer.jpg	5500	105	54	1	45	542	70	379,4000000000000341061
091024	14:06:43	1	SST	CRTT	tank.jpg	5000	652	42	1	46	542	70	379,4000000000000341061
091024	14:06:43	1	SST	CRTT	tank.jpg	5500	437	42	1	47	542	70	379,4000000000000341061
091024	14:06:43	1	SST	CRTT	deer.jpg	6000	675	54	1	48	542	70	379,4000000000000341061
091024	14:06:43	1	SST	CRTTstop	tank.jpg	5000	108	0	0	48	542	20	108,4000000000000056843
091024	14:06:43	1	SST	CRTTstop2	tank.jpg	5000	642	0	0	48	542	20	108,4000000000000056843
091024	14:06:43	1	SST	CRTTstop	deer.jpg	3408,4000000000000909495	434	0	0	48	542	80	433,6000000000000227374
091024	14:06:43	1	SST	CRTTstop2	deer.jpg	3408,4000000000000909495	166	54	1	47	542	80	433,6000000000000227374
091024	14:06:43	1	SST	CRTTstop	tank.jpg	5500	108	0	0	47	542	20	108,4000000000000056843
091024	14:06:43	1	SST	CRTTstop2	tank.jpg	5500	642	0	0	47	542	20	108,4000000000000056843
091024	14:06:43	1	SST	CRTTstop	deer.jpg	3908,4000000000000909495	434	0	0	47	542	80	433,6000000000000227374
091024	14:06:43	1	SST	CRTTstop2	deer.jpg	3908,4000000000000909495	316	0	0	47	542	80	433,6000000000000227374
091024	14:06:43	1	SST	CRTTstop	deer.jpg	4733,6000000000003637979	54	0	0	47	542	10	54,2000000000000028422
091024	14:06:43	1	SST	CRTTstop2	deer.jpg	4733,6000000000003637979	696	0	0	47	542	10	54,2000000000000028422
091024	14:06:43	1	SST	CRTT	tank.jpg	3854,1999999999998181011	750	0	0	46	542	10	54,2000000000000028422
